trialNum,ObjShowTime,ReactionTime,StimType,Guess,Correct
1,1724956898510.9,1724956898878.5600,3,3,1
2,1724956900283.740,1724956900936.300,2,2,1
3,1724956902302.540,1724956902603.920,2,2,1
4,1724956903816.220,1724956904056.240,2,2,1
5,1724956904740.570,1724956905090.510,1,1,1
6,1724956905644.850,1724956905922.790,1,1,1
8,1724956908232.3700,1724956908779.12,1,1,1
9,1724956909604.4200,1724956909958.850,1,1,1
10,1724956910863.2300,1724956911284.980,3,3,1
11,1724956912266.34,1724956912709.440,3,3,1
12,1724956913255.7600,1724956913903.700,1,1,1
13,1724956915006.0200,1724956915354.300,2,2,1
14,1724956916786.660,1724956917260.48,3,3,1
15,1724956917802.880,1724956918236.550,2,2,1
16,1724956918913.920,1724956919248.2800,2,2,1
17,1724956919778.630,1724956920079.310,2,2,1
18,1724956920836.640,1724956921205.4,1,1,1
20,1724956923426.640,1724956923754.4200,2,2,1
22,1724956925941.090,1724956926399.180,1,1,1
23,1724956927885.6100,1724956928318.3,2,2,1
24,1724956929434.660,1724956929886.540,1,1,1
25,1724956931060.920,1724956931372.620,2,2,1
26,1724956931978.010,1724956932299.04,2,2,1
27,1724956933688.420,1724956933995.290,2,2,1
28,1724956934887.64,1724956935200.700,2,2,1
29,1724956936518.040,1724956936820.270,2,2,1
30,1724956937524.620,1724956938017.160,3,3,1
31,1724956939039.5400,1724956939380.530,2,2,1
32,1724956940499.880,1724956940823.2,3,3,1
33,1724956942300.560,1724956942614.86,2,2,1
34,1724956943581.24,1724956944051.180,2,2,1
35,1724956944932.520,1724956945183.72,2,2,1
36,1724956946189.12,1724956946460.800,2,2,1
37,1724956947403.170,1724956947759.920,1,1,1
38,1724956948965.28,1724956949371.380,1,1,1
39,1724956950027.74,1724956950302.960,1,1,1
41,1724956953168.770,1724956953463.110,2,2,1
42,1724956954797.470,1724956955256.6000,1,1,1
45,1724956958597.880,1724956959153.070,3,3,1
46,1724956960436.420,1724956960715.2,3,3,1
47,1724956961350.5800,1724956961646.76,3,3,1
48,1724956963084.150,1724956963408.910,2,2,1
49,1724956964163.3200,1724956964466.510,2,2,1
50,1724956965525.840,1724956965942.700,1,1,1
51,1724956966475.050,1724956966907.78,3,3,1
52,1724956967745.110,1724956968013.680,3,3,1
53,1724956969139.04,1724956969547.8,2,2,1
54,1724956970904.1300,1724956971269.38,1,1,1
55,1724956972210.74,1724956972684.000,2,2,1
56,1724956973880.350,1724956974216.810,2,2,1
58,1724956976509.32,1724956977146.8,1,1,1
60,1724956979781.090,1724956980052.610,2,2,1
61,1724956981343.0000,1724956982081.190,3,3,1
62,1724956982609.590,1724956983076.870,3,3,1
63,1724956984464.2300,1724956984718.170,3,3,1
64,1724956985235.52,1724956985532.910,3,3,1
65,1724956986558.300,1724956986996.010,2,2,1
66,1724956987657.400,1724956988135.510,3,3,1
67,1724956988733.8400,1724956989062.390,2,2,1
68,1724956990226.750,1724956990553.950,2,2,1
69,1724956991682.310,1724956992066.240,1,1,1
70,1724956993485.690,1724956993963.560,2,2,1
71,1724956995339.04,1724956995869.160,1,1,1
72,1724956996442.6,1724956996842.200,2,2,1
73,1724956997600.610,1724956997889.570,2,2,1
74,1724956998523.0400,1724956998818.920,2,2,1
75,1724956999730.440,1724956999969.840,2,2,1
76,1724957001393.310,1724957001860.5200,1,1,1
78,1724957004724.9,1724957004998.5200,2,2,1
79,1724957005784.970,1724957006210.9,3,3,1
80,1724957006749.320,1724957007111.660,2,2,1
81,1724957007715.1300,1724957008178.420,1,1,1
82,1724957009129.8700,1724957009590.960,2,2,1
83,1724957010482.4,1724957010867.6800,3,3,1
84,1724957011935.140,1724957012277.220,1,1,1
85,1724957013141.670,1724957013525.550,2,2,1
86,1724957014079.000,1724957014423.290,2,2,1
87,1724957015911.7100,1724957016219.430,2,2,1
88,1724957017334.920,1724957017650.86,2,2,1
89,1724957019058.310,1724957019357.1600,2,2,1
90,1724957019988.58,1724957020630.1800,3,3,1
91,1724957021598.650,1724957022017.010,2,2,1
92,1724957022718.460,1724957023029.1300,2,2,1
93,1724957023636.570,1724957023920.6800,2,2,1
94,1724957025064.150,1724957025464.120,2,2,1
95,1724957026393.530,1724957026800.120,1,1,1
97,1724957029675.560,1724957030062.400,2,2,1
98,1724957030796.84,1724957031214.510,1,1,1
100,1724957033870.680,1724957034139.000,2,2,1
101,1724957034850.550,1724957035297.2600,3,3,1
102,1724957036093.76,1724957036404.2300,2,2,1
103,1724957037805.750,1724957038138.030,1,1,1
104,1724957039065.4900,1724957039408.610,2,2,1
106,1724957041795.2,1724957042268.0400,2,2,1
107,1724957043507.510,1724957044013.030,3,3,1
108,1724957044837.52,1724957045139.1600,3,3,1
109,1724957045711.650,1724957046081.9200,2,2,1
110,1724957046842.430,1724957047153.140,2,2,1
111,1724957047686.640,1724957048043.24,1,1,1
112,1724957048942.720,1724957049226.660,1,1,1
1,1725399983512.970,1725399984186.530,1,1,1
2,1725399985570.750,1725399986164.420,3,3,1
3,1725399986877.6600,1725399987246.100,1,1,1
4,1725399988345.330,1725399988751.470,3,3,1
6,1725399991213.74,1725399991575.290,2,2,1
7,1725399992111.600,1725399992469.64,2,2,1
8,1725399993962.930,1725399994410.530,2,2,1
9,1725399995906.830,1725399996210.250,1,1,1
10,1725399997086.6,1725399997628.100,2,2,1
11,1725399998960.490,1725399999332.310,2,2,1
12,1725400000309.64,1725400001058.000,3,3,1
13,1725400001972.350,1725400002479.090,2,2,1
14,1725400003139.450,1725400003660.58,2,2,1
15,1725400004959.94,1725400005400.880,3,3,1
16,1725400006650.240,1725400007050.630,2,2,1
17,1725400008379.980,1725400008624.44,1,1,1
20,1725400012313.780,1725400012811.140,1,1,1
21,1725400013669.490,1725400014424.54,1,1,1
22,1725400015270.9200,1725400016060.7100,2,2,1
23,1725400016863.14,1725400017367.040,1,1,1
24,1725400018107.390,1725400018518.290,1,1,1
25,1725400019355.68,1725400020059.790,3,3,1
26,1725400021521.14,1725400021967.810,3,3,1
27,1725400023017.140,1725400023504.990,1,1,1
28,1725400024855.350,1725400025196.62,2,2,1
29,1725400025762.980,1725400026174.760,2,2,1
30,1725400026780.120,1725400027466.04,3,3,1
31,1725400028605.430,1725400029045.84,3,3,1
32,1725400030514.200,1725400030876.040,2,2,1
33,1725400031477.400,1725400031881.84,1,1,1
34,1725400032763.220,1725400033193.880,1,1,1
36,1725400036319.240,1725400036720.810,3,3,1
37,1725400037902.180,1725400038368.5000,1,1,1
38,1725400039056.860,1725400039637.250,3,3,1
39,1725400040412.610,1725400040838.9200,1,1,1
40,1725400041357.300,1725400042126.670,3,3,1
41,1725400043609.0600,1725400044005.0000,1,1,1
42,1725400044582.360,1725400045015.62,1,1,1
43,1725400045534.980,1725400045967.700,1,1,1
44,1725400047425.050,1725400047853.12,3,3,1
45,1725400049065.48,1725400049326.590,2,2,1
46,1725400050284.94,1725400050700.640,3,3,1
47,1725400051769.0000,1725400052207.740,1,1,1
48,1725400052985.090,1725400053458.840,2,2,1
49,1725400054451.240,1725400055009.690,3,3,1
50,1725400056483.080,1725400056985.22,2,2,1
51,1725400058141.6,1725400058452.400,1,1,1
52,1725400059480.750,1725400059838.750,1,1,1
53,1725400060719.130,1725400061163.150,1,1,1
54,1725400062533.530,1725400062954.010,2,2,1
55,1725400064290.36,1725400064793.7600,3,3,1
56,1725400065792.12,1725400066348.550,2,2,1
57,1725400067146.920,1725400067517.8200,3,3,1
58,1725400068923.200,1725400069416.180,2,2,1
59,1725400070137.54,1725400070579.140,3,3,1
60,1725400071610.490,1725400072011.860,1,1,1
61,1725400073310.2100,1725400073815.0000,3,3,1
62,1725400074481.380,1725400074905.7100,3,3,1
63,1725400076237.080,1725400076727.670,3,3,1
64,1725400077239.030,1725400077632.58,3,3,1
65,1725400078443.0,1725400079062.670,2,2,1
66,1725400080554.150,1725400080969.170,1,1,1
67,1725400081899.640,1725400082371.430,3,3,1
68,1725400082884.880,1725400083420.110,1,1,1
69,1725400084219.530,1725400084602.08,3,3,1
70,1725400085131.550,1725400085828.150,1,1,1
72,1725400087569.94,1725400088220.830,2,2,1
73,1725400089207.270,1725400089553.910,3,3,1
74,1725400090711.36,1725400091362.890,2,2,1
75,1725400092810.400,1725400093195.230,1,1,1
76,1725400094193.670,1725400094554.920,1,1,1
77,1725400095245.3700,1725400095750.910,3,3,1
78,1725400097238.36,1725400097631.120,2,2,1
79,1725400098139.540,1725400098565.150,2,2,1
80,1725400099696.6,1725400100151.400,1,1,1
81,1725400101004.810,1725400101387.960,1,1,1
82,1725400102416.440,1725400102836.04,1,1,1
83,1725400103688.48,1725400104178.980,2,2,1
84,1725400104726.460,1725400105187.090,3,3,1
85,1725400106044.530,1725400106391.460,3,3,1
86,1725400106997.9,1725400107381.100,3,3,1
87,1725400108098.570,1725400108609.630,2,2,1
88,1725400109149.12,1725400109519.52,3,3,1
89,1725400110698.970,1725400111156.180,3,3,1
90,1725400112435.600,1725400112871.2100,2,2,1
91,1725400113877.640,1725400114515.670,2,2,1
92,1725400115248.140,1725400115727.200,1,1,1
93,1725400116632.640,1725400117008.910,1,1,1
94,1725400118220.360,1725400118591.850,2,2,1
95,1725400119270.330,1725400119648.880,2,2,1
96,1725400120904.340,1725400121378.100,3,3,1
97,1725400122117.540,1725400122611.3,2,2,1
98,1725400123790.750,1725400124210.060,3,3,1
100,1725400126603.320,1725400126934.250,1,1,1
101,1725400128212.8200,1725400128748.110,2,2,1
102,1725400129638.630,1725400129988.420,3,3,1
103,1725400130747.890,1725400131400.1600,2,2,1
104,1725400132367.670,1725400132808.900,1,1,1
105,1725400133899.420,1725400134305.700,2,2,1
106,1725400135537.160,1725400135872.72,1,1,1
1,1725052640510.900,1725052640757.540,3,3,1
2,1725052641640.78,1725052641912.720,3,3,1
3,1725052643293.940,1725052643734.740,2,2,1
4,1725052644378.960,1725052644730.940,3,3,1
5,1725052645834.250,1725052646139.66,1,1,1
6,1725052647405.990,1725052647617.66,1,1,1
7,1725052648835.94,1725052649039.32,1,1,1
9,1725052650748.730,1725052651151.130,1,1,1
10,1725052652485.480,1725052652867.62,3,3,1
11,1725052653422.970,1725052653850.360,1,1,1
12,1725052654520.74,1725052654835.720,2,2,1
14,1725052656891.890,1725052657190.250,2,2,1
15,1725052658399.630,1725052658865.96,3,3,1
16,1725052660139.34,1725052660473.800,2,2,1
19,1725052664102.650,1725052664417.360,1,1,1
20,1725052665044.690,1725052665397.960,2,2,1
22,1725052667433.06,1725052667842.210,3,3,1
23,1725052669022.620,1725052669247.220,3,3,1
24,1725052670478.600,1725052670819.950,1,1,1
25,1725052671545.340,1725052671785.600,3,3,1
26,1725052672313.950,1725052672755.790,2,2,1
27,1725052673464.12,1725052673897.070,2,2,1
28,1725052675136.46,1725052675328.830,3,3,1
30,1725052676820.330,1725052677101.830,1,1,1
31,1725052678399.18,1725052678729.050,3,3,1
32,1725052679881.380,1725052680179.480,1,1,1
33,1725052680828.84,1725052681091.370,3,3,1
34,1725052682029.710,1725052682345.430,1,1,1
35,1725052683551.780,1725052683853.840,1,1,1
36,1725052685305.230,1725052685620.270,1,1,1
38,1725052688885.720,1725052689192.010,2,2,1
39,1725052689947.340,1725052690321.740,1,1,1
40,1725052690910.070,1725052691146.68,2,2,1
42,1725052693376.760,1725052693669.740,1,1,1
43,1725052694544.100,1725052694838.26,3,3,1
44,1725052696038.62,1725052696268.740,2,2,1
45,1725052696996.12,1725052697332.42,3,3,1
46,1725052698239.780,1725052698511.150,3,3,1
48,1725052700394.96,1725052700679.910,3,3,1
49,1725052702158.330,1725052702459.400,1,1,1
51,1725052704469.930,1725052704851.520,3,3,1
52,1725052706027.890,1725052706344.740,1,1,1
53,1725052706880.090,1725052707195.420,2,2,1
54,1725052708634.800,1725052709057.900,2,2,1
55,1725052710189.28,1725052710660.980,2,2,1
56,1725052711821.380,1725052712114.44,1,1,1
57,1725052713079.8,1725052713585.0,3,3,1
58,1725052715046.400,1725052715425.820,1,1,1
59,1725052716449.18,1725052716670.120,2,2,1
60,1725052717499.470,1725052717814.940,1,1,1
61,1725052718937.3,1725052719183.840,3,3,1
62,1725052719965.24,1725052720210.14,3,3,1
63,1725052720910.500,1725052721419.900,2,2,1
64,1725052722221.280,1725052722519.360,2,2,1
65,1725052723390.720,1725052723720.300,1,1,1
66,1725052724487.650,1725052724758.96,2,2,1
67,1725052725772.350,1725052726043.550,2,2,1
68,1725052726966.920,1725052727179.240,2,2,1
69,1725052728620.580,1725052728825.800,2,2,1
70,1725052730130.130,1725052730439.770,3,3,1
71,1725052731602.120,1725052731987.890,2,2,1
72,1725052733031.250,1725052733285.480,2,2,1
73,1725052734384.820,1725052734647.840,3,3,1
74,1725052735739.300,1725052736049.860,3,3,1
75,1725052737208.38,1725052737641.94,1,1,1
76,1725052739006.420,1725052739280.030,1,1,1
77,1725052739871.440,1725052740195.300,2,2,1
78,1725052741672.710,1725052742071.540,1,1,1
79,1725052743379.980,1725052743667.410,1,1,1
80,1725052744671.86,1725052744971.68,2,2,1
81,1725052746431.130,1725052746775.560,3,3,1
83,1725052749170.680,1725052749513.980,2,2,1
84,1725052750601.42,1725052750846.02,2,2,1
85,1725052751390.440,1725052751717.76,1,1,1
86,1725052752745.210,1725052753022.380,3,3,1
87,1725052754233.860,1725052754566.110,1,1,1
88,1725052755934.590,1725052756314.760,2,2,1
89,1725052757028.230,1725052757391.180,1,1,1
90,1725052757990.650,1725052758276.370,2,2,1
91,1725052759531.850,1725052759879.380,3,3,1
92,1725052760398.850,1725052760668.840,3,3,1
93,1725052761359.32,1725052761691.550,3,3,1
94,1725052762673.0,1725052762935.870,2,2,1
95,1725052764090.350,1725052764690.790,1,1,1
96,1725052766139.240,1725052766415.780,3,3,1
97,1725052767444.22,1725052767766.880,3,3,1
98,1725052768483.350,1725052768820.570,2,2,1
99,1725052770144.02,1725052770416.920,1,1,1
100,1725052771900.390,1725052772214.320,3,3,1
101,1725052773149.880,1725052773514.82,1,1,1
102,1725052774701.330,1725052774973.880,2,2,1
103,1725052776233.400,1725052776561.860,3,3,1
104,1725052777157.32,1725052777489.900,2,2,1
105,1725052777999.42,1725052778266.540,2,2,1
106,1725052779293.030,1725052779587.660,3,3,1
107,1725052780163.160,1725052780410.480,1,1,1
108,1725052781310.000,1725052781574.870,2,2,1
109,1725052782261.38,1725052782620.66,1,1,1
110,1725052783614.140,1725052783854.940,3,3,1
111,1725052785117.460,1725052785492.580,2,2,1
1,1725048725511.950,1725048725911.880,3,3,1
2,1725048726724.100,1725048727052.36,3,3,1
3,1725048728083.570,1725048728529.720,1,1,1
4,1725048729589.050,1725048730078.360,2,2,1
5,1725048730741.670,1725048731170.810,1,1,1
7,1725048734366.66,1725048734705.210,2,2,1
8,1725048735560.5000,1725048735853.650,1,1,1
9,1725048736740.980,1725048736981.620,1,1,1
10,1725048738323.960,1725048738606.18,1,1,1
12,1725048740963.990,1725048741532.280,3,3,1
13,1725048742045.640,1725048742589.8,1,1,1
16,1725048746708.020,1725048747330.480,1,1,1
19,1725048750922.680,1725048751477.210,1,1,1
20,1725048752892.560,1725048753372.500,2,2,1
21,1725048754462.830,1725048754869.650,2,2,1
22,1725048755918.010,1725048756299.3,2,2,1
23,1725048757642.700,1725048758006.04,2,2,1
24,1725048759063.370,1725048759342.930,1,1,1
25,1725048759873.28,1725048760210.86,1,1,1
26,1725048761189.190,1725048761421.030,3,3,1
27,1725048762667.380,1725048762986.420,2,2,1
29,1725048765823.580,1725048766253.700,1,1,1
31,1725048768632.460,1725048769213.770,1,1,1
33,1725048771404.380,1725048771784.360,2,2,1
34,1725048772661.740,1725048772823.070,2,2,1
35,1725048774033.42,1725048774254.980,2,2,1
37,1725048776760.200,1725048777043.790,1,1,1
39,1725048779635.2,1725048780210.650,1,1,1
40,1725048781364.990,1725048781754.480,3,3,1
41,1725048782753.8400,1725048783081.630,3,3,1
42,1725048784216.990,1725048784970.550,2,2,1
43,1725048786148.930,1725048786641.420,3,3,1
44,1725048787891.770,1725048788224.960,1,1,1
45,1725048789205.340,1725048789734.020,3,3,1
46,1725048790511.38,1725048791158.230,2,2,1
47,1725048792626.580,1725048793262.790,3,3,1
48,1725048793996.150,1725048794836.970,2,2,1
49,1725048796027.390,1725048796330.900,2,2,1
50,1725048797534.250,1725048797887.900,1,1,1
52,1725048800536.080,1725048800992.810,3,3,1
53,1725048801960.170,1725048802288.510,3,3,1
54,1725048803658.870,1725048804153.490,2,2,1
56,1725048807300.260,1725048807783.770,2,2,1
57,1725048808953.130,1725048809453.460,2,2,1
58,1725048810335.840,1725048810763.780,1,1,1
59,1725048811362.110,1725048811801.440,1,1,1
61,1725048814698.830,1725048815249.520,1,1,1
62,1725048816706.950,1725048817444.950,3,3,1
63,1725048818701.310,1725048819217.14,3,3,1
64,1725048820551.590,1725048821090.480,2,2,1
65,1725048821637.9,1725048822223.590,1,1,1
66,1725048823167.040,1725048823682.620,2,2,1
67,1725048824232.070,1725048824756.610,3,3,1
68,1725048826135.050,1725048826478.660,2,2,1
69,1725048827160.14,1725048827421.530,2,2,1
70,1725048828079.970,1725048828551.370,1,1,1
71,1725048829344.790,1725048829728.150,3,3,1
73,1725048831997.460,1725048832513.800,2,2,1
74,1725048833977.24,1725048834308.040,1,1,1
75,1725048835342.520,1725048835741.880,2,2,1
76,1725048836698.340,1725048836950.36,2,2,1
77,1725048837600.800,1725048838007.980,3,3,1
78,1725048838644.430,1725048839111.52,2,2,1
79,1725048840126.980,1725048840479.010,1,1,1
80,1725048841059.430,1725048841447.420,2,2,1
81,1725048842444.870,1725048842793.760,3,3,1
82,1725048843779.210,1725048844166.910,2,2,1
83,1725048845422.350,1725048845660.3900,1,1,1
84,1725048847055.810,1725048847306.210,1,1,1
85,1725048847868.660,1725048848206.710,1,1,1
86,1725048848896.180,1725048849209.270,1,1,1
88,1725048851946.830,1725048852526.790,2,2,1
89,1725048853565.24,1725048853900.48,1,1,1
90,1725048854748.930,1725048854988.72,1,1,1
92,1725048857758.130,1725048858168.62,3,3,1
93,1725048859100.040,1725048859457.210,2,2,1
94,1725048860429.68,1725048860640.040,2,2,1
95,1725048861782.510,1725048862220.4400,1,1,1
96,1725048863035.880,1725048863238.140,1,1,1
97,1725048863977.580,1725048864398.240,1,1,1
98,1725048865427.720,1725048865792.920,2,2,1
99,1725048866719.390,1725048866998.250,2,2,1
101,1725048869675.060,1725048870003.72,1,1,1
102,1725048871028.24,1725048871373.260,2,2,1
103,1725048872385.760,1725048872613.580,2,2,1
105,1725048874854.380,1725048875244.620,1,1,1
106,1725048876507.090,1725048876743.240,1,1,1
107,1725048878236.730,1725048878956.750,1,1,1
108,1725048880420.24,1725048880935.56,2,2,1
109,1725048882138.060,1725048882840.440,1,1,1
110,1725048883736.950,1725048884344.540,3,3,1
111,1725048885253.04,1725048885522.360,3,3,1
114,1725048889078.940,1725048889534.280,3,3,1
115,1725048890590.800,1725048890898.730,3,3,1
117,1725048893174.280,1725048893740.370,2,2,1
118,1725048894769.86,1725048895145.030,1,1,1
119,1725048896476.520,1725048896896.450,2,2,1
120,1725048897446.910,1725048898059.92,3,3,1
123,1725048902449.040,1725048903233.530,3,3,1
124,1725048904370.020,1725048904706.210,1,1,1