trialNum,ObjShowTime,ReactionTime,StimType,Guess,Correct
1,1725398172253.890,1725398172658.780,2,2,1
2,1725398173740.12,1725398173975.2800,2,2,1
3,1725398175315.790,1725398175717.810,1,1,1
4,1725398177158.310,1725398177406.410,1,1,1
5,1725398178634.910,1725398178944.670,1,1,1
6,1725398179765.170,1725398179992.1800,1,1,1
7,1725398180817.6,1725398181202.120,2,2,1
8,1725398182191.550,1725398182393.280,2,2,1
9,1725398183462.790,1725398183747.210,1,1,1
10,1725398184843.7,1725398185137.900,1,1,1
11,1725398186518.360,1725398186749.5,2,2,1
12,1725398187746.9900,1725398187968.86,2,2,1
13,1725398189179.350,1725398189465.580,2,2,1
14,1725398190439.070,1725398190639.670,2,2,1
15,1725398192079.16,1725398192402.370,2,2,1
16,1725398193705.94,1725398193995.2400,1,1,1
17,1725398195351.7900,1725398195626.0800,1,1,1
18,1725398196661.540,1725398196954.48,2,2,1
19,1725398197763.0400,1725398198129.66,1,1,1
20,1725398198648.130,1725398199012.7700,2,2,1
21,1725398199957.260,1725398200247.100,2,2,1
22,1725398201393.600,1725398201708.4400,2,2,1
23,1725398202423.000,1725398202807.950,1,1,1
24,1725398203338.490,1725398203697.080,1,1,1
25,1725398204653.550,1725398205026.0,2,2,1
26,1725398206503.560,1725398206849.210,1,1,1
27,1725398207584.6800,1725398207836.800,2,2,1
28,1725398208658.280,1725398208956.8500,2,2,1
29,1725398210399.4200,1725398210752.0700,1,1,1
30,1725398211514.5400,1725398211870.2000,2,2,1
31,1725398213195.76,1725398213583.060,1,1,1
32,1725398214611.520,1725398214892.98,2,2,1
33,1725398216346.5400,1725398216654.5200,1,2,0
34,1725398217466.990,1725398218248.8500,2,2,1
35,1725398219357.350,1725398219741.190,2,2,1
36,1725398220347.670,1725398220559.12,2,2,1
37,1725398221353.620,1725398221548.690,2,2,1
38,1725398222694.250,1725398223067.260,1,1,1
39,1725398223678.8000,1725398223933.510,1,1,1
40,1725398225085.060,1725398225342.200,1,1,1
41,1725398226371.670,1725398226571.510,2,1,0
42,1725398227909.0000,1725398228258.580,2,2,1
43,1725398229573.1400,1725398229931.3900,1,1,1
44,1725398231040.930,1725398231342.66,1,1,1
45,1725398232598.130,1725398232937.340,2,2,1
46,1725398233688.92,1725398234066.5,1,1,1
47,1725398235221.9700,1725398235533.490,2,2,1
48,1725398236158.980,1725398236458.5,2,2,1
49,1725398237326.990,1725398237586.2900,2,2,1
50,1725398239065.780,1725398239344.48,2,2,1
51,1725398240688.050,1725398241084.890,1,1,1
52,1725398242143.4400,1725398242395.4700,1,1,1
53,1725398243082.0100,1725398243329.300,1,1,1
54,1725398244749.760,1725398245105.44,2,2,1
55,1725398245826.94,1725398246016.450,2,2,1
56,1725398247412.0200,1725398247685.1200,1,1,1
57,1725398249005.5900,1725398249303.210,2,2,1
58,1725398250586.780,1725398250900.380,1,1,1
59,1725398251826.930,1725398252172.930,1,1,1
60,1725398253483.480,1725398253836.8200,1,1,1
61,1725398254466.2900,1725398254852.1600,2,2,1
62,1725398255724.660,1725398255959.270,2,2,1
63,1725398256630.7700,1725398256950.42,2,2,1
64,1725398257609.9000,1725398257848.5700,2,2,1
65,1725398259138.0600,1725398259436.6800,2,2,1
66,1725398260863.16,1725398261089.9,2,2,1
67,1725398262025.390,1725398262271.250,2,2,1
68,1725398263503.810,1725398263797.910,1,1,1
69,1725398264978.550,1725398265296.740,1,1,1
70,1725398266203.390,1725398266505.8500,1,1,1
71,1725398267919.490,1725398268282.4600,1,1,1
72,1725398269280.0100,1725398269567.850,2,2,1
73,1725398270642.5100,1725398270831.190,1,2,0
74,1725398271557.830,1725398272247.590,1,1,1
75,1725398273423.150,1725398273805.310,2,2,1
76,1725398275189.98,1725398275555.18,1,1,1
77,1725398276320.740,1725398276739.870,2,2,1
78,1725398277419.520,1725398278119.600,1,1,1
79,1725398278985.170,1725398279246.610,2,2,1
80,1725398280347.270,1725398280683.960,1,1,1
81,1725398281906.520,1725398282211.6800,2,2,1
82,1725398282978.340,1725398283239.92,1,1,1
83,1725398284302.5600,1725398284702.770,1,1,1
84,1725398285417.4000,1725398285635.42,1,1,1
85,1725398287046.98,1725398287360.830,2,2,1
86,1725398288528.420,1725398288867.520,2,2,1
87,1725398289505.100,1725398289790.700,2,2,1
88,1725398291223.2900,1725398291537.260,2,2,1
89,1725398292744.840,1725398293014.600,2,2,1
90,1725398294372.170,1725398294718.6800,2,2,1
91,1725398295656.26,1725398295955.820,2,2,1
92,1725398296830.4800,1725398297153.840,1,1,1
93,1725398297678.48,1725398298004.5900,1,1,1
94,1725398299290.22,1725398299559.5600,1,1,1
95,1725398300543.200,1725398300830.3800,1,1,1
96,1725398301581.0200,1725398301833.220,1,1,1
97,1725398302368.780,1725398302715.410,2,2,1
98,1725398304211.980,1725398304469.270,2,2,1
99,1725398305167.8400,1725398305427.2500,2,2,1
100,1725398306274.910,1725398306620.020,1,1,1
101,1725398307427.610,1725398307986.8900,2,2,1
102,1725398308563.5900,1725398308944.260,1,1,1
103,1725398310343.94,1725398310952.2200,1,1,1
1,1725402189253.860,1725402189502.370,2,2,1
2,1725402190618.710,1725402190820.540,2,2,1
3,1725402191835.990,1725402192014.400,2,2,1
4,1725402192747.840,1725402192929.740,2,2,1
5,1725402194231.18,1725402194406.660,2,2,1
6,1725402195362.100,1725402195525.850,2,2,1
7,1725402196900.290,1725402197122.730,2,2,1
8,1725402198473.24,1725402198750.1300,1,1,1
9,1725402200127.62,1725402200438.450,1,1,1
10,1725402201030.860,1725402201242.2600,2,2,1
11,1725402202663.760,1725402202831.330,2,2,1
12,1725402203885.8200,1725402204015.070,2,2,1
13,1725402204759.650,1725402204921.050,1,2,0
14,1725402205875.520,1725402206047.930,2,2,1
15,1725402206807.410,1725402207040.510,2,2,1
16,1725402208385.070,1725402208554.330,1,1,1
17,1725402209088.880,1725402209340.720,1,1,1
18,1725402210137.18,1725402210356.390,2,2,1
19,1725402211180.8700,1725402211387.7,2,2,1
20,1725402212836.180,1725402213082.2600,2,2,1
21,1725402213907.750,1725402214078.350,2,2,1
22,1725402214824.84,1725402214985.190,2,2,1
23,1725402216117.670,1725402216355.350,2,2,1
24,1725402217471.9200,1725402217785.6100,1,1,1
25,1725402218339.160,1725402218558.500,1,1,1
26,1725402219486.960,1725402219761.0,2,2,1
27,1725402220404.490,1725402220544.220,2,2,1
28,1725402221492.700,1725402221713.330,2,2,1
29,1725402222327.9,1725402222567.08,1,1,1
30,1725402223446.620,1725402223701.0,1,1,1
31,1725402224404.540,1725402224654.450,1,1,1
32,1725402225902.910,1725402226079.280,2,2,1
33,1725402227579.860,1725402227744.7100,1,1,1
34,1725402228265.18,1725402228463.1,2,2,1
35,1725402229069.680,1725402229234.5600,1,1,1
36,1725402229939.030,1725402230101.970,2,2,1
37,1725402230617.450,1725402230810.360,2,1,0
38,1725402232033.930,1725402232259.960,1,1,1
39,1725402233290.44,1725402233447.100,2,2,1
40,1725402234815.660,1725402235009.320,1,1,1
41,1725402235801.790,1725402235930.6100,2,2,1
42,1725402236583.090,1725402236766.720,2,2,1
43,1725402238106.2,1725402238339.780,2,2,1
44,1725402239424.360,1725402239578.710,1,1,1
45,1725402240531.18,1725402240733.6100,2,2,1
46,1725402242050.180,1725402242267.1600,1,1,1
47,1725402242845.710,1725402243106.4,1,1,1
48,1725402244135.880,1725402244289.420,2,2,1
49,1725402245154.900,1725402245306.050,2,2,1
50,1725402245933.6100,1725402246186.0000,1,1,1
51,1725402247515.4700,1725402247665.780,2,2,1
52,1725402249135.2600,1725402249363.1100,2,2,1
53,1725402250686.600,1725402250956.830,2,2,1
54,1725402251558.320,1725402251774.290,2,2,1
55,1725402252376.860,1725402252636.550,1,1,1
56,1725402253964.020,1725402254140.150,2,2,1
57,1725402255358.720,1725402255602.170,1,1,1
58,1725402256498.640,1725402256659.360,2,2,1
59,1725402257797.940,1725402257992.040,1,1,1
60,1725402258643.5000,1725402258805.38,2,2,1
61,1725402259381.960,1725402259568.100,1,1,1
62,1725402260279.5800,1725402260455.460,2,2,1
63,1725402261848.940,1725402262180.390,2,2,1
64,1725402263072.880,1725402263252.160,2,2,1
65,1725402264379.640,1725402264616.110,2,2,1
66,1725402265601.680,1725402265848.380,1,1,1
67,1725402267191.94,1725402267434.94,1,1,1
68,1725402268763.410,1725402268956.090,2,2,1
69,1725402270017.660,1725402270217.84,1,1,1
70,1725402271624.38,1725402271905.84,1,1,1
71,1725402273003.310,1725402273167.280,2,2,1
72,1725402274227.840,1725402274487.190,1,1,1
73,1725402274988.660,1725402275210.140,2,2,1
74,1725402276426.720,1725402276621.110,1,1,1
75,1725402278034.570,1725402278275.4700,2,2,1
76,1725402279039.960,1725402279212.400,2,1,0
77,1725402280448.9700,1725402280605.52,1,1,1
78,1725402281706.070,1725402281858.660,2,2,1
79,1725402282371.330,1725402282567.06,1,1,1
80,1725402283202.6300,1725402283362.84,2,2,1
81,1725402284316.420,1725402284522.620,2,2,1
82,1725402285316.200,1725402285525.770,2,2,1
83,1725402286480.34,1725402286677.6100,2,2,1
84,1725402288061.2,1725402288303.6300,2,2,1
85,1725402289383.290,1725402289551.830,1,1,1
86,1725402290065.470,1725402290313.030,1,1,1
87,1725402290819.5800,1725402291011.590,2,2,1
88,1725402291568.170,1725402291764.990,2,2,1
89,1725402292309.570,1725402292495.070,2,2,1
90,1725402293727.720,1725402293904.450,1,1,1
91,1725402294453.010,1725402294637.94,2,2,1
92,1725402295603.530,1725402295776.180,2,2,1
93,1725402296355.830,1725402296498.160,1,2,0
94,1725402297788.8,1725402298163.110,1,1,1
95,1725402298799.750,1725402299052.160,1,1,1
96,1725402300295.720,1725402300449.74,2,2,1
97,1725402301453.32,1725402301605.960,2,2,1
98,1725402302122.530,1725402302349.640,2,2,1
99,1725402303747.3,1725402303931.510,1,1,1
100,1725402305338.0800,1725402305489.570,2,1,0
101,1725402306005.190,1725402306413.6,2,2,1
102,1725402307718.230,1725402307980.7600,2,2,1
103,1725402309003.400,1725402309480.56,2,2,1
104,1725402310174.180,1725402310405.160,2,2,1
105,1725402310988.790,1725402311165.850,2,2,1
1,1725397019253.9,1725397019605.6100,2,2,1
2,1725397020686.950,1725397020969.710,2,2,1
3,1725397022310.220,1725397022577.850,1,1,1
4,1725397024018.350,1725397024260.680,1,1,1
5,1725397025489.180,1725397025838.780,1,1,1
6,1725397026659.290,1725397026955.490,1,1,1
7,1725397027780.910,1725397028018.860,2,2,1
8,1725397029008.300,1725397029261.180,2,2,1
9,1725397030330.7,1725397030791.530,1,1,1
10,1725397031888.030,1725397032174.740,1,1,1
11,1725397033555.2,1725397033873.730,2,2,1
12,1725397034871.220,1725397035279.96,2,2,1
13,1725397036490.460,1725397036797.64,2,2,1
14,1725397037771.12,1725397038035.7,2,2,1
15,1725397039475.180,1725397039803.150,2,2,1
16,1725397041106.720,1725397041306.540,1,1,1
17,1725397042663.100,1725397042936.1600,1,1,1
18,1725397043971.62,1725397044382.680,2,2,1
19,1725397045191.240,1725397045588.050,1,1,1
20,1725397046106.510,1725397046476.450,2,2,1
21,1725397047420.920,1725397047698.660,2,2,1
22,1725397048845.140,1725397049163.64,2,2,1
23,1725397049878.220,1725397050295.950,1,1,1
24,1725397050826.5,1725397051217.800,1,1,1
25,1725397052174.270,1725397052634.660,2,2,1
26,1725397054112.230,1725397054467.790,1,1,1
27,1725397055203.26,1725397055589.870,2,2,1
28,1725397056411.370,1725397056617.1600,2,2,1
29,1725397058059.72,1725397058293.300,1,1,1
30,1725397059055.770,1725397059367.290,2,2,1
31,1725397060692.86,1725397060925.340,1,1,1
32,1725397061953.800,1725397062180.370,2,1,0
33,1725397063633.950,1725397063909.870,1,1,1
34,1725397064722.350,1725397065078.800,2,2,1
35,1725397066187.290,1725397066642.08,2,2,1
36,1725397067248.570,1725397067528.940,2,2,1
37,1725397068323.430,1725397068687.320,2,2,1
38,1725397069832.880,1725397070046.150,1,1,1
39,1725397070657.690,1725397070986.530,1,1,1
40,1725397072138.080,1725397072456.72,1,1,1
41,1725397073486.18,1725397073737.440,2,2,1
42,1725397075074.930,1725397075371.440,2,2,1
43,1725397076686.010,1725397076994.470,1,1,1
44,1725397078104.010,1725397078366.610,1,1,1
45,1725397079622.080,1725397079837.280,2,2,1
46,1725397080588.850,1725397080890.880,1,1,1
47,1725397082046.360,1725397082329.92,2,2,1
48,1725397082955.410,1725397083262.640,2,2,1
49,1725397084131.130,1725397084446.790,2,2,1
50,1725397085926.280,1725397086241.94,2,2,1
51,1725397087585.510,1725397087772.6100,1,1,1
52,1725397088831.150,1725397089053.760,1,1,1
53,1725397089740.300,1725397090004.96,1,1,1
54,1725397091425.42,1725397092059.26,2,2,1
55,1725397092780.750,1725397093033.900,2,2,1
56,1725397094429.470,1725397094809.830,1,1,1
57,1725397096130.3,1725397096380.110,2,2,1
58,1725397097663.68,1725397097920.900,1,1,1
59,1725397098847.440,1725397099129.770,1,1,1
60,1725397100440.32,1725397100774.450,1,1,1
61,1725397101403.92,1725397101686.030,2,2,1
62,1725397102558.520,1725397102819.7,2,2,1
63,1725397103491.18,1725397103776.820,2,2,1
64,1725397104436.3,1725397104685.6100,2,2,1
65,1725397105975.100,1725397106239.820,2,2,1
66,1725397107666.320,1725397107910.1600,2,2,1
67,1725397108845.650,1725397109075.080,2,2,1
68,1725397110307.650,1725397110496.240,1,1,1
69,1725397111676.88,1725397111873.850,1,1,1
70,1725397112780.490,1725397113055.7100,1,1,1
71,1725397114469.36,1725397114733.470,1,1,1
72,1725397115731.020,1725397115934.030,2,1,0
73,1725397117008.700,1725397117347.86,1,1,1
74,1725397118074.490,1725397118545.420,1,1,1
75,1725397119720.980,1725397120006.490,2,2,1
76,1725397121391.140,1725397121687.0000,1,1,1
77,1725397122452.570,1725397122760.100,2,2,1
78,1725397123439.760,1725397123787.310,1,1,1
79,1725397124652.88,1725397124897.830,2,2,1
80,1725397125998.500,1725397126283.6100,1,1,1
81,1725397127506.160,1725397127920.870,2,2,1
82,1725397128687.530,1725397128992.58,1,1,1
83,1725397130055.210,1725397130348.480,1,1,1
84,1725397131063.110,1725397131404.450,1,1,1
85,1725397132816.0,1725397133150.140,2,2,1
86,1725397134317.720,1725397134535.2600,2,2,1
87,1725397135172.84,1725397135436.670,2,2,1
88,1725397136869.260,1725397137168.5,2,2,1
89,1725397138376.080,1725397138656.340,2,2,1
90,1725397140013.920,1725397140270.1100,2,2,1
91,1725397141207.690,1725397141492.4,2,2,1
92,1725397142367.0600,1725397142613.04,1,1,1
93,1725397143137.670,1725397143549.650,1,1,1
94,1725397144835.280,1725397145173.400,1,1,1
95,1725397146157.050,1725397146488.040,1,1,1
96,1725397147238.68,1725397147736.140,1,1,1
97,1725397148271.690,1725397148552.040,2,2,1
98,1725397150048.610,1725397150328.370,2,2,1
99,1725397151026.960,1725397151290.060,2,2,1
100,1725397152137.720,1725397152387.810,1,1,1
101,1725397153195.410,1725397153465.680,2,2,1
102,1725397154042.400,1725397154352.6,1,1,1
1,1725400858253.900,1725400858479.18,2,2,1
2,1725400859320.520,1725400859539.980,2,2,1
3,1725400860582.400,1725400860801.980,1,1,1
4,1725400861592.390,1725400861790.670,2,2,1
5,1725400862743.1800,1725400862928.280,1,1,1
6,1725400864304.780,1725400864487.980,1,1,1
7,1725400865522.400,1725400865769.400,2,2,1
8,1725400867152.920,1725400867400.620,1,1,1
9,1725400868664.040,1725400868814.92,2,2,1
10,1725400869567.440,1725400869749.1,1,1,1
11,1725400870709.560,1725400870926.890,2,2,1
12,1725400872272.370,1725400872426.38,2,2,1
13,1725400873511.9400,1725400873718.6800,1,1,1
14,1725400874406.150,1725400874629.590,2,2,1
15,1725400875687.080,1725400875933.440,2,2,1
16,1725400876562.010,1725400876791.650,1,1,1
17,1725400877309.110,1725400877547.4400,2,2,1
18,1725400878729.930,1725400878925.370,2,2,1
19,1725400879658.94,1725400879847.180,1,1,1
20,1725400881198.730,1725400881453.070,1,1,1
21,1725400882060.620,1725400882273.200,1,1,1
22,1725400883666.750,1725400883858.480,1,1,1
23,1725400885021.02,1725400885226.760,1,1,1
24,1725400885849.220,1725400886050.570,2,2,1
25,1725400886599.060,1725400886782.350,2,2,1
26,1725400887991.830,1725400888252.510,2,2,1
27,1725400889723.080,1725400890016.260,1,1,1
28,1725400890607.810,1725400890823.720,1,1,1
29,1725400891509.18,1725400891794.010,2,2,1
30,1725400893221.5000,1725400893410.66,2,2,1
31,1725400893940.220,1725400894238.860,1,1,1
32,1725400895540.400,1725400895706.970,1,1,1
33,1725400896756.510,1725400896992.990,1,1,1
34,1725400898340.540,1725400898517.760,1,1,1
35,1725400899856.310,1725400900019.260,1,1,1
36,1725400901102.730,1725400901307.24,2,2,1
37,1725400902710.8,1725400903005.600,1,1,1
38,1725400903810.140,1725400904024.130,1,1,1
39,1725400905321.590,1725400905575.340,2,2,1
40,1725400906089.820,1725400906309.140,2,2,1
41,1725400907804.720,1725400908032.32,1,2,0
42,1725400909209.86,1725400909457.360,1,2,0
43,1725400910367.910,1725400910650.460,1,1,1
44,1725400911713.000,1725400911922.730,1,1,1
45,1725400913272.190,1725400913557.880,2,2,1
46,1725400914502.370,1725400914684.94,2,2,1
47,1725400915772.500,1725400916080.470,1,1,1
48,1725400916802.930,1725400916999.330,2,1,0
49,1725400918153.820,1725400918379.44,2,2,1
50,1725400919488.920,1725400919703.840,2,2,1
51,1725400920794.410,1725400920993.780,1,2,0
52,1725400922050.330,1725400922237.900,1,1,1
53,1725400923152.38,1725400923376.710,2,2,1
54,1725400924417.200,1725400924624.900,2,2,1
55,1725400925460.380,1725400925653.620,2,2,1
56,1725400926201.120,1725400926473.82,2,2,1
57,1725400927522.3900,1725400927754.04,1,1,1
58,1725400928358.6,1725400928612.250,1,1,1
59,1725400929672.790,1725400929861.600,1,1,1
60,1725400931297.150,1725400931517.780,1,1,1
61,1725400932692.240,1725400932885.700,2,1,0
62,1725400933760.180,1725400933978.540,2,2,1
63,1725400935340.120,1725400935573.230,1,1,1
64,1725400937069.700,1725400937339.14,2,2,1
65,1725400937843.710,1725400938119.650,1,1,1
66,1725400939174.2,1725400939433.770,1,1,1
67,1725400940555.320,1725400940822.560,1,1,1
68,1725400941762.020,1725400942042.920,2,2,1
69,1725400942592.480,1725400942853.400,1,2,0
70,1725400943857.940,1725400944148.720,1,2,0
71,1725400945288.28,1725400945527.970,1,1,1
72,1725400946242.520,1725400946465.890,1,1,1
73,1725400947365.350,1725400947620.62,2,2,1
74,1725400949085.120,1725400949355.150,2,2,1
75,1725400950694.720,1725400950905.100,1,1,1
76,1725400951616.7400,1725400951826.740,1,1,1
77,1725400952750.300,1725400952978.490,2,2,1
78,1725400953663.140,1725400954111.8400,1,1,1
79,1725400955369.400,1725400955596.98,2,2,1
80,1725400956810.6300,1725400957010.870,1,1,1
81,1725400958300.42,1725400958487.570,2,2,1
82,1725400959228.150,1725400959501.360,2,2,1
83,1725400960433.010,1725400960667.380,1,1,1
84,1725400961519.020,1725400961729.660,1,1,1
85,1725400962334.220,1725400962574.040,2,2,1
86,1725400963095.6300,1725400963320.520,2,2,1
87,1725400964295.100,1725400964531.590,2,2,1
88,1725400965726.180,1725400965975.52,2,2,1
89,1725400967062.090,1725400967242.040,2,2,1
90,1725400968599.6300,1725400968845.9,2,2,1
91,1725400969981.490,1725400970196.04,2,1,0
92,1725400971195.690,1725400971454.020,1,2,0
93,1725400972654.670,1725400972886.100,1,1,1
94,1725400973753.650,1725400974118.800,2,2,1
95,1725400975216.470,1725400975414.92,1,1,1
96,1725400976460.560,1725400976716.190,1,1,1
97,1725400977852.7400,1725400978124.110,2,2,1
98,1725400978889.700,1725400979095.98,2,2,1
99,1725400980560.640,1725400980799.66,1,1,1
100,1725400981471.310,1725400981676.7,1,1,1
101,1725400982921.300,1725400983196.82,2,2,1
102,1725400984538.440,1725400984874.980,2,2,1
103,1725400985504.6,1725400985692.570,2,2,1
104,1725400986869.270,1725400987101.040,1,1,1
105,1725400988417.72,1725400988651.850,1,1,1
106,1725400989912.4400,1725400990106.700,2,2,1
107,1725400990739.32,1725400990922.72,2,2,1
108,1725400991677.340,1725400991865.090,2,2,1
109,1725400993033.720,1725400993345.600,2,2,1