trialNum,ObjShowTime,ReactionTime,StimType,Guess,Correct
1,1727716931253.932,1727716931908.384,2,2,1
2,1727716932487.708,1727716932963.5762,3,3,1
3,1727716933973.012,1727716934489.632,3,3,1
4,1727716935474.156,1727716935810.6802,1,1,1
5,1727716936501.188,1727716936804.28,1,1,1
6,1727716937748.692,1727716938181.468,3,3,1
7,1727716938689.908,1727716939061.036,3,3,1
8,1727716940134.476,1727716940508.104,3,3,1
9,1727716941936.6282,1727716942527.572,1,1,1
10,1727716943082.068,1727716943509.948,1,1,1
11,1727716944114.4202,1727716944646.704,3,3,1
12,1727716945688.236,1727716946061.936,2,2,1
13,1727716947292.448,1727716947653.856,2,2,1
14,1727716948846.404,1727716949308.332,1,1,1
15,1727716950656.84,1727716951208.94,2,2,1
16,1727716952535.48,1727716953052.044,1,1,1
17,1727716953766.5042,1727716954341.06,3,3,1
18,1727716954910.644,1727716955387.552,1,1,1
19,1727716956815.112,1727716957179.5042,1,1,1
20,1727716957702.008,1727716958146.1802,2,3,0
21,1727716959085.74,1727716959663.7122,1,1,1
22,1727716960860.2642,1727716961206.9722,1,1,1
23,1727716961946.5242,1727716962257.296,1,1,1
24,1727716963277.8,1727716963867.624,2,2,1
25,1727716964712.1802,1727716964963.14,1,2,0
26,1727716965507.6082,1727716965978.8162,3,3,1
27,1727716967373.312,1727716967814.6282,3,3,1
28,1727716968877.196,1727716969246.164,1,1,1
29,1727716970021.6802,1727716970408.976,2,2,1
30,1727716970916.5242,1727716971339.216,1,1,1
31,1727716972823.752,1727716973172.64,1,1,1
32,1727716973886.192,1727716974184.312,1,1,1
33,1727716974685.856,1727716974966.032,1,1,1
34,1727716975837.532,1727716976190.452,2,2,1
35,1727716977115.012,1727716977564.592,1,1,1
36,1727716978390.096,1727716978911.408,2,2,1
37,1727716980020.88,1727716980367.088,3,3,1
38,1727716981244.5762,1727716981575.308,3,3,1
39,1727716982167.876,1727716982497.6082,1,2,0
40,1727716983721.072,1727716984155.3362,3,3,1
41,1727716985228.8682,1727716985819.356,2,2,1
42,1727716986344.8682,1727716986715.268,2,2,1
43,1727716987737.748,1727716988272.74,3,3,1
44,1727716989478.268,1727716990078.244,2,2,1
45,1727716991494.8,1727716991865.788,1,1,1
46,1727716992919.344,1727716993257.8162,1,1,1
47,1727716994012.364,1727716994418.28,1,1,1
48,1727716995160.8362,1727716995474.692,1,1,1
49,1727716996181.244,1727716996591.276,1,1,1
50,1727716997450.7842,1727716997842.236,2,2,1
51,1727716998826.756,1727716999111.8682,2,2,1
52,1727717000317.38,1727717000604.8682,2,2,1
53,1727717001300.34,1727717001680.664,3,3,1
54,1727717003170.224,1727717003592.716,1,2,0
55,1727717004108.2642,1727717004494.788,1,1,1
56,1727717005051.292,1727717005571.332,2,2,1
57,1727717006706.8882,1727717007174.384,1,1,1
58,1727717008513.936,1727717008972.2,1,1,1
59,1727717010200.704,1727717010615.216,2,2,1
60,1727717011723.684,1727717012167.184,3,3,1
61,1727717013620.76,1727717013968.508,1,1,1
62,1727717015307.988,1727717016131.8162,3,2,0
63,1727717017172.3,1727717017529.272,3,2,0
64,1727717018477.8,1727717019023.6,2,1,0
65,1727717020373.0762,1727717020984.52,3,2,0
66,1727717022335.088,1727717022816.464,1,1,1
67,1727717023835.06,1727717024314.4722,1,1,1
68,1727717025604.072,1727717025987.26,2,2,1
69,1727717027162.916,1727717027684.5042,1,1,1
70,1727717028368.06,1727717028832.404,3,3,1
71,1727717029753.98,1727717030417.064,3,3,1
72,1727717031782.648,1727717032122.224,3,3,1
73,1727717033310.884,1727717033826.016,1,1,1
74,1727717034485.58,1727717035106.052,3,3,1
75,1727717035992.672,1727717036392.228,2,2,1
76,1727717037141.876,1727717037652.548,1,1,1
77,1727717038320.184,1727717038627.724,1,1,1
78,1727717039945.36,1727717040357.708,1,1,1
79,1727717041022.344,1727717041359.572,1,1,1
80,1727717042333.204,1727717042730.924,1,1,1
81,1727717043558.5242,1727717043982.272,2,2,1
82,1727717045113.876,1727717045395.456,2,2,1
83,1727717045998.1,1727717046549.0042,1,1,1
84,1727717047804.644,1727717048157.064,1,1,1
85,1727717049609.656,1727717050096.672,2,2,1
86,1727717050685.236,1727717050970.94,3,3,1
87,1727717052102.564,1727717052564.844,2,2,1
88,1727717053473.496,1727717053801.88,1,1,1
89,1727717054542.4722,1727717054933.544,2,2,1
90,1727717055609.144,1727717055905.04,2,2,1
91,1727717057089.6802,1727717057398.844,1,2,0
92,1727717058060.44,1727717058572.496,2,2,1
93,1727717059881.132,1727717060282.864,1,1,1
94,1727717061338.4202,1727717061955.768,3,3,1
95,1727717063062.392,1727717063514.384,2,2,1
96,1727717064810.948,1727717065252.84,3,2,0
97,1727717066077.416,1727717066432.1602,3,2,0
98,1727717067464.824,1727717067881.256,1,1,1
99,1727717069000.812,1727717069413.4722,3,2,0
100,1727717070636.052,1727717070909.512,3,2,0
101,1727717071727.132,1727717071999.74,3,2,0
102,1727717072519.36,1727717072799.312,3,2,0
103,1727717073697.02,1727717074004.964,1,1,1
104,1727717074650.568,1727717075022.5562,3,2,0
105,1727717075997.176,1727717076272.632,3,2,0
106,1727717077094.308,1727717077458.896,2,1,0
107,1727717078762.54,1727717079397.1,2,2,1
108,1727717080246.708,1727717080819.044,3,3,1
109,1727717081373.748,1727717081718.7122,1,2,0
110,1727717082322.304,1727717083172.588,3,3,1
111,1727717083829.252,1727717084429.872,2,2,1
112,1727717085884.564,1727717086302.636,1,1,1
113,1727717087310.28,1727717087958.708,2,2,1
114,1727717088765.324,1727717089210.892,3,2,0
115,1727717089891.6,1727717090216.6282,1,3,0
116,1727717090799.236,1727717091354.104,3,3,1
117,1727717092005.82,1727717092363.7842,1,1,1
118,1727717093170.4202,1727717093558.064,2,1,0
119,1727717094059.7122,1727717094703.508,2,2,1
120,1727717096095.12,1727717096543.084,3,3,1
121,1727717097861.744,1727717098419.168,2,2,1
122,1727717099511.768,1727717099898.416,3,2,0
123,1727717100452.044,1727717100838.5242,3,3,1
