trialNum,ObjShowTime,ReactionTime,StimType,Guess,Correct
1,1725398471253.96,1725398472222.42,1,1,1
2,1725398473552.7878,1725398473936.24,2,3,0
3,1725398475287.7078,1725398475631.668,2,2,1
4,1725398476344.172,1725398476866.2078,1,1,1
5,1725398478325.6238,1725398478796.0198,3,3,1
6,1725398479678.4558,1725398480126.2278,3,3,1
7,1725398481469.744,1725398482126.3718,1,1,1
8,1725398483157.796,1725398483672.016,3,3,1
9,1725398484244.532,1725398484772.152,1,1,1
10,1725398485597.564,1725398485868.92,3,3,1
11,1725398486861.4038,1725398487148.5398,3,1,0
12,1725398487668.024,1725398488265.16,3,3,1
13,1725398488985.6958,1725398489595.224,2,2,1
14,1725398490854.7678,1725398491234.6758,1,1,1
15,1725398492305.22,1725398492617.452,1,1,1
16,1725398493609.012,1725398493879.8198,1,1,1
17,1725398494415.36,1725398494897.016,1,1,1
18,1725398496199.492,1725398496642.46,3,3,1
19,1725398497436.94,1725398497661.596,3,3,1
20,1725398498682.084,1725398498921.356,3,3,1
21,1725398499686.844,1725398499938.244,3,3,1
22,1725398501109.8198,1725398501467.724,1,1,1
23,1725398502518.232,1725398502823.752,2,2,1
24,1725398504099.304,1725398504441.068,1,1,1
25,1725398505841.5798,1725398506186.46,2,2,1
26,1725398507373.964,1725398507735.628,2,2,1
27,1725398508977.14,1725398509219.004,2,2,1
28,1725398510337.556,1725398510722.6638,1,1,1
29,1725398511655.1238,1725398511980.984,3,3,1
30,1725398512939.556,1725398513705.472,1,1,1
31,1725398514934.016,1725398515227.096,1,1,1
32,1725398516274.604,1725398516917.408,2,3,0
33,1725398518394.876,1725398518891.604,3,3,1
34,1725398519557.1318,1725398520274.088,2,2,1
35,1725398520790.5918,1725398521198.576,2,2,1
36,1725398521738.128,1725398522261.44,1,1,1
37,1725398523036.948,1725398523682.5198,2,2,1
38,1725398524194.076,1725398524563.948,1,1,1
39,1725398525342.412,1725398525797.4678,3,3,1
40,1725398526485.032,1725398527066.2078,1,2,0
41,1725398528117.7158,1725398528606.4,2,2,1
42,1725398530037.908,1725398530417.4558,2,2,1
43,1725398531585.98,1725398531979.8638,2,2,1
44,1725398532637.336,1725398533238.752,3,3,1
45,1725398534251.276,1725398534715.516,2,3,0
46,1725398536118.064,1725398537096.9038,1,1,1
47,1725398538375.4038,1725398539044.9558,2,2,1
48,1725398539905.5078,1725398540312.412,1,2,0
49,1725398541099.888,1725398541759.24,3,3,1
50,1725398542928.732,1725398543458.42,3,3,1
51,1725398544298.9158,1725398544533.616,3,3,1
52,1725398545842.108,1725398546220.204,3,3,1
53,1725398547087.764,1725398547597.1958,1,1,1
54,1725398548375.756,1725398548690.048,1,1,1
55,1725398549808.588,1725398550109.272,1,1,1
56,1725398550761.816,1725398551201.9238,1,1,1
57,1725398552106.3918,1725398552714.104,3,3,1
58,1725398553525.6318,1725398554655.152,2,1,0
59,1725398555232.7,1725398556451.14,1,2,0
60,1725398557160.656,1725398558294.004,2,1,0
61,1725398559335.5598,1725398560086.948,1,1,1
62,1725398561516.4158,1725398562029.576,3,3,1
63,1725398562709.108,1725398563460.9678,2,1,0
64,1725398564088.62,1725398571012.8838,1,1,1
65,1725398571832.4958,1725398572969.46,2,2,1
66,1725398574358.104,1725398575396.64,1,1,1
67,1725398576050.2078,1725398576681.8398,3,3,1
68,1725398577766.4758,1725398578324.992,2,3,0
69,1725398579326.596,1725398579594.252,2,3,0
70,1725398580212.8118,1725398580730.104,3,3,1
71,1725398581397.724,1725398581839.7998,2,2,1
72,1725398583021.4,1725398583437.932,2,2,1
73,1725398584569.576,1725398585149.604,1,2,0
74,1725398585666.2,1725398595376.652,2,3,0
75,1725398596584.2158,1725398597291.296,3,3,1
76,1725398598681.912,1725398599381.7158,2,1,0
77,1725398600598.3638,1725398601173.296,1,1,1
78,1725398602171.932,1725398602493.816,1,1,1
79,1725398603935.452,1725398604246.1238,1,1,1
80,1725398605106.6758,1725398605848.076,3,3,1
81,1725398606549.656,1725398606780.5278,3,3,1
82,1725398608053.1,1725398608381.568,3,3,1
83,1725398609214.192,1725398609814.296,2,1,0
84,1725398610975.952,1725398611710.692,1,1,1
85,1725398612966.296,1725398613371.5198,2,2,1
86,1725398614073.156,1725398615012.4558,1,1,1
87,1725398616397.084,1725398617048.596,1,1,1
88,1725398618219.148,1725398618761.212,3,3,1
89,1725398619558.792,1725398619813.3718,3,3,1
90,1725398620329.9958,1725398620873.7598,2,2,1
91,1725398622111.3198,1725398622615.556,3,3,1
92,1725398623707.14,1725398623968.252,3,3,1
93,1725398625384.8638,1725398625770.6,2,2,1
94,1725398626441.168,1725398626886.7,3,3,1
95,1725398627755.348,1725398628375.8638,1,1,1
96,1725398628899.464,1725398629422.252,2,2,1
97,1725398630278.8518,1725398630666.96,2,2,1
98,1725398631431.6,1725398631878.86,1,1,1
99,1725398632464.4158,1725398633006.6838,3,3,1
100,1725398634218.3398,1725398634589.896,1,2,0
101,1725398635902.5718,1725398636387.116,1,1,1
102,1725398637258.7678,1725398637722.964,2,2,1
103,1725398638871.608,1725398639186.4558,2,2,1
104,1725398640664.0598,1725398641366.2358,3,3,1
105,1725398641954.948,1725398642592.908,1,1,1
106,1725398643664.5,1725398644215.8638,3,2,0
107,1725398645619.4878,1725398645803.2878,3,3,1
108,1725398647089.948,1725398648338.596,2,3,0
109,1725398649329.244,1725398650067.7278,2,3,0
110,1725398651294.3398,1725398652116.7,3,3,1
111,1725398653148.368,1725398653704.9358,2,2,1
112,1725398654291.544,1725398654899.244,3,3,1
113,1725398656130.8718,1725398656531.628,3,2,0
114,1725398657899.2478,1725398658289.0598,3,2,0
115,1725398659638.7598,1725398659809.084,1,3,0
116,1725398660737.692,1725398661750.8518,3,3,1
117,1725398662489.5198,1725398663066.0,2,2,1
118,1725398663888.688,1725398664285.1238,1,1,1
119,1725398665644.7598,1725398666076.052,2,2,1
120,1725398667452.668,1725398667968.6958,3,3,1
121,1725398669165.3918,1725398669552.2478,1,2,0
122,1725398670189.928,1725398670556.9678,1,1,1
123,1725398671251.6638,1725398671482.38,1,1,1
124,1725398672223.0078,1725398672669.744,2,2,1
